Folder: lattice_materials

Note: Note sul codice.txt
//LIB che ci aveva dato Nicola Ferro epnso, che servono per runnare codice non so bene a cosa ...
makemetrica.edp
makepatch.edp
sparse2full.edp

//variabili sue da indentificare/identificate
Vh1 =spazio 1d
Vhp =spazio 1d periodico
Xh =spazio 3d
Xhp =spazio discreto (periodico) spostamento u 2d->3d
Xh0
Vh spazio spostamento u
Xh/Xhp spazio densità
Wh spazio nel non lineare per f(F2) deribvate sue ecc.

v = soluzione iniziale (da cui partono le iterazioni di ipopt e anche filtro di Helmotz ~ rho_h)
vH = densità filtrata dopo helmotz filter (rho_f)
psi = densità test per formulazione debole Helmotz filter pb (di Vhp)
lz uz = param of ipopt vd pag233 FreeFem doc
m11
m12
m22
lm = lm param of ipopt vd pag233 FreeFem doc
q r s sono le potenze della densità (il p del rho^p)
radius = 1/tau^2 coefficient Helmotz filter
l1star ecc.?

//HO SCOPERTO SERVONO PER MAKEMETRICA -> CHIEDERE MEGLIO PERCHÈ; come se Xh0 in makemetrica lo deducesse dallo script n cui lo chiama, infatti è una func
fespace Xh0(Th, P0); //  periodic = [[2,y],[4,y],[1,x],[3,x]]);
Xh0 vol = area;

[v1,v2,v3]: funzioni test (componenti) per formulazioni deboli con lo spostamento (in microprimal, in E ecc.)
u1star ecc spostamenti a cui corrispondo gli epsilon star (eq4)
[z1,z2,z3]
epsilon, sigma = epsilon e sigma note, dipendono dalle componenti dello spostamento
BC periodic in 3d
https://www.ljll.math.upmc.fr/pipermail/freefempp/2012-September/002149.html
pag 175 forse spiega bene fespace opzioni anche se non coincide con quello che lui (no ma bene così ...), o forse più  probabile è spiegato male.
importante penso sia ordine 1 2 3 4 5 6 (prima non funzionava ordine 3 4 1 2 5 6)

//variabili aggiunte
w = terza componente dello spostamento (dopo u e v)
E3333, E1133, E3311, E1313, E2233, E3322, E2323 = componenti tensore E in 3d

newJ1 = 1/2(E1111-E1111star)^2+1/2(E1122-E1122star)^2
newJ2 = 1/2(E1111-E1111star)^2+1/2(E1122-E1122star)^2+1/2(E2222-E2222star)^2
newJ3 = 1/2(E1111/E1111-E1111star)^2+1/2(E1122/E1111-E1122star)^2 +1/2(E2222/E1111-E2222star)^2
newJ4 = 1/2(E1111/E1111-E1111star)^2+1/2(E1122/E1111-E1122star)^2

Note: README.md
# Lattice materials

## Linear 3D
* __linear_3D.edp__

## Non linear 2D
* __tensile.edp__: problema lineare di Micheletti, senza condizioni periodiche ???? (con convect nel problema primale, quindi no buono)
* __tensile_periodico.edp__: problema lineare di Micheletti, no adaptation, no ipopt, calcolo di nu tramite v (formula 3 paper non lineare Sigmund) usando convect (->possibile J func?)
* __tensile_BC.edp__: modello lineare di Michelletti con BC di Ferro
* __tensile_nu.edp__: modello lineare di Micheletti con calcolo nu diverso
* __tensile_BC_nu.edp__: modello lineare di Micheletti con BC di Ferro e calcolo nu diverso
* __ff_non_linear__: problema non lineare dalla documentazione di FreeFem
* __tensile_non_linear__: problema di dilatazione di Micheletti nel modello non lineare di FreeFem (provare anche con BC di Ferro)
* __(third_try.edp__: pb primale con nostro modello, BC suggerite da ferro 26/01)
* __nonlinear1.edp__: modifica problema case1 con modello non lineare ottenuto tramite paper Sigmund e Xia (modello nostro) (probabilmente i nomi con _ sono da cambiare), direi con energia1 (iniziato ma interrotto perchè scrivendo i pb primali componente per componente non ci tornavano cose)
* __nonlinear2.edp__: modifica problema case1 con modello non lineare ottenuto tramite paper Sigmund e Xia (modello nostro), con energia4

## Hints
Plottando sigma vs epsilon (? interpretazione grafici di Sigmund è problematica), dovrebbe venire una retta indep da u0
Settare rho = 1 su tutto il dominio
Imporre i dati e le BC
Lanciare il problema primale e vedere gli spostamenti u (e calcolare nu)

__BCs__:

* __Bordo sopra__: Neumann omogeneo
* __Bordo sotto__: Neumann omogeneo
* __Bordo destro__: trazione = Dirichlet u = [u0 , 0]  -> v = int1d(bordo di sopra) (u)/ lunghezza_bordo di sopra (per convertire valore nodale in un valore singolo sul bordo di sopra)
* __Bordo sinistro__: simmetria u.n = 0

Note: README.txt
LINEAR 3D
---
linear_3D.edp
---


NON LINEARE 2D
---
tensile.edp: problema lineare di Micheletti, senza condizioni periodiche ???? (con convect nel problema primale, quindi no buono)
---
tensile_periodico.edp: problema lineare di Micheletti, no adaptation, no ipopt, calcolo di nu tramite v (formula 3 paper non lineare Sigmund) usando convect (->possibile J func?)
---
tensile_BC.edp: modello lineare di Michelletti con BC di Ferro
---
tensile_nu.edo: modello lineare di Micheletti con calcolo nu diverso
---
tensile_BC_nu.edo: modello lineare di Micheletti con BC di Ferro e calcolo nu diverso
---
ff_non_linear: problema non lineare dalla documentazione di FreeFem
---
tensile_non_linear: problema di dilatazione di Micheletti nel modello non lineare di FreeFem (provare anche con BC di Ferro)
---
(third_try.edp: pb primale con nostro modello, BC suggerite da ferro 26/01)
---
nonlinear1.edp: modifica problema case1 con modello non lineare ottenuto tramite paper Sigmund e Xia (modello nostro) (probabilmente i nomi con _ sono da cambiare), direi con energia1 (iniziato ma interrotto perchè scrivendo i pb primali componente per componente non ci tornavano cose)
---
nonlinear2.edp: modifica problema case1 con modello non lineare ottenuto tramite paper Sigmund e Xia (modello nostro), con energia4
---

Hints
--
Plottando sigma vs epsilon (? interpretazione grafici di Sigmund è problematica), dovrebbe venire una retta indep da u0
Settare rho = 1 su tutto il dominio
Imporre i dati e le BC
Lanciare il problema primale e vedere gli spostamenti u (e calcolare nu)

BCs:
Bordo sopra: Neumann omogeneo
Bordo sotto: Neumann omogeneo
Bordo destro: trazione = Dirichlet u = [u0 , 0]  -> v = int1d(bordo di sopra) (u)/ lunghezza_bordo di sopra (per convertire valore nodale in un valore singolo sul bordo di sopra)
Bordo sinistro: simmetria u.n = 0

File: tensile_non_linear2.csv
-0,
-0,
1.27827,
0.227333,
0.218161,
0.218161,
0.218161,
0.218161,
0.399064,
0.399064,
0.399064,
0.384141,

File: tensile_non_linear.csv
epsilon11,epsilon12,epsilon22,sigma11,sigma12,sigma22,nu12,nl(=1 se non lineare, 0 lineare)
1,-1.43364e-15,-0.3,1,-1.1028e-15,-2.23432e-17,0.3,0,
1.25,1.19977e-05,-0.374976,1.25001,9.22899e-06,2.63908e-05,0.299981,0,
1.5,0.00266012,-0.444199,1.50191,0.00204624,0.00637422,0.296133,0,
1.75,-0.0613727,-0.596293,1.7265,-0.0472098,-0.0783442,0.340739,0,
2,-0.241807,-1.17486,1.81048,-0.186005,-0.631718,0.587431,0,
0.75,2.33543e-05,-0.224951,0.750016,1.79648e-05,5.33635e-05,0.299935,0,
0.5,0.000623334,-0.14865,0.500445,0.000479488,0.00148328,0.2973,0,
0.4,0.00109438,-0.117508,0.400821,0.000841832,0.00273826,0.29377,0,
0.3,0.00138556,-0.0864966,0.301155,0.00106581,0.00384994,0.288322,0,
0.2,0.00121003,-0.0561195,0.201279,0.000930795,0.00426424,0.280598,0,
0.1,0.000558679,-0.0264777,0.101161,0.000429753,0.00387061,0.264777,0,

File: tensile_nu.csv
epsilon11,epsilon12,epsilon22,sigma11,sigma12,sigma22,nu12
1,1.13964e-15,-0.3,1,8.76649e-16,4.23443e-15,0.3,
1.25,1.58436e-15,-0.375,1.25,1.21874e-15,8.33909e-15,0.3,
1.5,1.68497e-15,-0.45,1.5,1.29613e-15,9.6563e-15,0.3,
1.75,1.70697e-15,-0.525,1.75,1.31305e-15,7.23534e-15,0.3,
2,2.27929e-15,-0.6,2,1.7533e-15,8.46886e-15,0.3,
0.75,8.42486e-16,-0.225,0.75,6.48066e-16,4.82815e-15,0.3,
0.5,5.69822e-16,-0.15,0.5,4.38325e-16,2.11722e-15,0.3,
0.4,5.21302e-16,-0.12,0.4,4.01001e-16,1.73593e-15,0.3,
0.3,4.66259e-16,-0.09,0.3,3.58661e-16,1.65555e-15,0.3,
0.2,2.60651e-16,-0.06,0.2,2.00501e-16,8.67965e-16,0.3,
0.1,1.30325e-16,-0.03,0.1,1.0025e-16,4.33983e-16,0.3,
(grafici Sigmund, E = 0.0072*1e-9; u che va da 0.4 a 0.05)
0.4,-3.46893e-16,-0.12,2.88e-12,-1.92125e-27,-3.01013e-26,0.3,
0.35,-2.67945e-16,-0.105,2.52e-12,-1.48401e-27,-2.56328e-26,0.3,
0.3,-2.59983e-16,-0.09,2.16e-12,-1.43991e-27,-2.28106e-26,0.3,
0.25,-2.05599e-16,-0.075,1.8e-12,-1.1387e-27,-1.87131e-26,0.3,
0.2,-1.73446e-16,-0.06,1.44e-12,-9.60626e-28,-1.50507e-26,0.3,
0.15,-1.29992e-16,-0.045,1.08e-12,-7.19953e-28,-1.14053e-26,0.3,
0.1,-8.67232e-17,-0.03,7.2e-13,-4.80313e-28,-7.52533e-27,0.3,
0.05,-4.33616e-17,-0.015,3.6e-13,-2.40156e-28,-3.76267e-27,0.3,
(grafici Sigmund, E = 1e-9; u che va da 0.4 a 0.05)
0.4,-8.96037e-16,-0.12,4e-10,-6.89259e-25,-3.04452e-24,0.3,
0.35,-8.90607e-16,-0.105,3.5e-10,-6.85082e-25,-3.53624e-24,0.3,
0.3,-8.05415e-16,-0.09,3e-10,-6.1955e-25,-2.62484e-24,0.3,
0.25,-3.85941e-16,-0.075,2.5e-10,-2.96878e-25,-1.87119e-24,0.3,
0.2,-4.48018e-16,-0.06,2e-10,-3.4463e-25,-1.52226e-24,0.3,
0.15,-4.02707e-16,-0.045,1.5e-10,-3.09775e-25,-1.31242e-24,0.3,
0.1,-2.24009e-16,-0.03,1e-10,-1.72315e-25,-7.61129e-25,0.3,
0.05,-1.12005e-16,-0.015,5e-11,-8.61574e-26,-3.80564e-25,0.3,
(grafici Sigmund, E = 0.0072; u che va da 0.4 a 0.05)
0.4,-1.7629e-15,-0.12,0.00288,-9.76373e-18,-5.76176e-17,0.3,
0.35,-1.56234e-15,-0.105,0.00252,-8.65298e-18,-4.61112e-17,0.3,
0.3,-1.25721e-15,-0.09,0.00216,-6.96299e-18,-4.21466e-17,0.3,
0.25,-1.07614e-15,-0.075,0.0018,-5.96014e-18,-3.59922e-17,0.3,
0.2,-8.81448e-16,-0.06,0.00144,-4.88186e-18,-2.88088e-17,0.3,
0.15,-6.28603e-16,-0.045,0.00108,-3.48149e-18,-2.10733e-17,0.3,
0.1,-4.40724e-16,-0.03,0.00072,-2.44093e-18,-1.44044e-17,0.3,
0.05,-2.20362e-16,-0.015,0.00036,-1.22047e-18,-7.2022e-18,0.3,